trials.thisRepN,trials.thisTrialN,trials.thisN,trials.thisIndex,thisRow.t,notes,nidaqTrigger.started,text_waiting_message.started,key_resp.started,nidaqTrigger.stopped,key_resp.keys,key_resp.rt,key_resp.duration,display_gratings.started,stim_grayScreen.started,stim_grating.started,display_gratings.stopped,encoder_data,Protocol ID,Subject ID,Session ID,date,expName,psychopyVersion,frameRate,expStart,
,,,,,,0.01588559994706884,0.030285999993793666,0.030285999993793666,0.33135089999996126,left,0.2951209000311792,None,,,,,,devJG,01,01,2024-07-16_23h07.17.921,Gratings_vis_devJG_v0.4,2024.1.5,None,2024-07-16 23h07.22.755805 -0400,
0,0,0,0,0.3518773999530822,,,,,,,,,0.33163189998595044,0.3518773999530822,3.3584104999899864,5.347427300002892,"Empty DataFrame
Columns: [timestamp, speed, distance, direction]
Index: []",devJG,01,01,2024-07-16_23h07.17.921,Gratings_vis_devJG_v0.4,2024.1.5,None,2024-07-16 23h07.22.755805 -0400,
1,0,1,0,5.366969699971378,,,,,,,,,5.347869899997022,5.366969699971378,8.337265799986199,10.342745999980252,"    timestamp      speed  distance direction
0    7.971813   0.000000  0.000000         0
1    8.037778   0.000000  0.000000         0
2    8.088972  -0.245465 -0.012566         2
3    8.141820  -2.532383 -0.146399         2
4    8.206236  -2.399531 -0.300965         2
5    8.272315  -2.167949 -0.444222         2
6    8.340301  -0.175597 -0.456160         2
7    8.406236  -0.095294 -0.462444         2
8    8.472733  -0.122834 -0.470612         2
9    8.522950  -0.137633 -0.477523         2
10   8.573064  -0.626892 -0.508939         2
11   8.640325  -4.035537 -0.780373         2
12   8.707032 -10.973171 -1.512366         2
13   8.773733  -1.639066 -1.621694         2
14   8.838960  -0.751362 -1.670703         2
15   8.908000  -1.501647 -1.774376         2
16   8.974409  -2.166630 -1.918261         2
17   9.039902  -9.219571 -2.522076         2
18   9.091851  -2.624612 -2.658422         2
19   9.156852  -0.724975 -2.705546         2
20   9.223242  -1.608898 -2.812360         2
21   9.273389  -4.686010 -3.047352         2
22   9.323933  -5.805370 -3.340777         2
23   9.390586  -6.457312 -3.771177         2
24   9.457117  -7.895140 -4.296452         2
25   9.507942  -5.884547 -4.595532         2
26   9.573649  -1.137927 -4.670303         2
27   9.623946  -2.061233 -4.773975         2
28   9.690562  -1.122396 -4.848745         2
29   9.740930  -2.657129 -4.982578         2
30   9.790999  -3.011786 -5.133374         2
31   9.856027  -5.594437 -5.497172         2
32   9.922676  -1.385821 -5.589535         2
33   9.973215  -1.554023 -5.668075         2
34  10.039543  -2.102986 -5.807562         2
35  10.090248  -4.138853 -6.017421         2
36  10.156345  -4.629450 -6.323412         2
37  10.206477  -6.630096 -6.655794         2
38  10.272897  -8.059751 -7.191122         2
39  10.326562  -6.509705 -7.540468         2",devJG,01,01,2024-07-16_23h07.17.921,Gratings_vis_devJG_v0.4,2024.1.5,None,2024-07-16 23h07.22.755805 -0400,
2,0,2,0,10.354981699958444,,,,,,,,,10.343208399950527,10.354981699958444,13.341505799966399,15.345266399963293,"     timestamp     speed  distance direction
0     7.971813  0.000000  0.000000         0
1     8.037778  0.000000  0.000000         0
2     8.088972 -0.245465 -0.012566         2
3     8.141820 -2.532383 -0.146399         2
4     8.206236 -2.399531 -0.300965         2
..         ...       ...       ...       ...
121  15.093765  6.414862  2.099217         1
122  15.143885  0.162972  2.107385         1
123  15.210604  0.000000  2.107385         0
124  15.260762  0.000000  2.107385         0
125  15.327331  0.169894  2.118695         1

[126 rows x 4 columns]",devJG,01,01,2024-07-16_23h07.17.921,Gratings_vis_devJG_v0.4,2024.1.5,None,2024-07-16 23h07.22.755805 -0400,
