trials.thisRepN,trials.thisTrialN,trials.thisN,trials.thisIndex,thisRow.t,notes,nidaqTrigger.started,text_waiting_message.started,key_resp.started,nidaqTrigger.stopped,key_resp.keys,key_resp.rt,key_resp.duration,display_gratings.started,stim_grayScreen.started,stim_grating.started,display_gratings.stopped,encoder_data,Protocol ID,Subject ID,Session ID,date,expName,psychopyVersion,frameRate,expStart,
,,,,,,0.007589899993035942,0.02326580003136769,0.02326580003136769,0.2759606000036001,left,0.24188479996519163,None,,,,,,devJG,01,01,2024-07-16_23h06.14.047,Gratings_vis_devJG_v0.4,2024.1.5,None,2024-07-16 23h06.17.184964 -0400,
0,0,0,0,0.29240350000327453,,,,,,,,,0.27647819998674095,0.29240350000327453,3.2756368999835104,5.279355300008319,"Empty DataFrame
Columns: [timestamp, speed, distance, direction]
Index: []",devJG,01,01,2024-07-16_23h06.14.047,Gratings_vis_devJG_v0.4,2024.1.5,None,2024-07-16 23h06.17.184964 -0400,
1,0,1,0,5.293122300005052,,,,,,,,,5.27966820000438,5.293122300005052,8.279857899993658,10.283826800005045,"    timestamp     speed  distance direction
0    6.399512  2.375128  0.145142         1
1    6.464324  1.909820  0.268921         1
2    6.515875  2.401066  0.392700         1
3    6.582080  2.543464  0.561090         1
4    6.632382  3.622434  0.743303         1
..        ...       ...       ...       ...
60   9.999602 -1.388196  2.100474         2
61  10.049955 -1.971591  2.001199         2
62  10.101898 -0.919322  1.953447         2
63  10.166606 -0.747676  1.905066         2
64  10.233422 -0.329129  1.883075         2

[65 rows x 4 columns]",devJG,01,01,2024-07-16_23h06.14.047,Gratings_vis_devJG_v0.4,2024.1.5,None,2024-07-16 23h06.17.184964 -0400,
2,0,2,0,10.297144900017884,,,,,,,,,10.284163400006946,10.297144900017884,13.283895700005814,15.28611839999212,"     timestamp     speed  distance direction
0     6.399512  2.375128  0.145142         1
1     6.464324  1.909820  0.268921         1
2     6.515875  2.401066  0.392700         1
3     6.582080  2.543464  0.561090         1
4     6.632382  3.622434  0.743303         1
..         ...       ...       ...       ...
146  15.035996 -3.349882  1.041126         2
147  15.086025 -2.737898  0.904152         2
148  15.137805 -3.385476  0.728851         2
149  15.202570 -2.687313  0.554807         2
150  15.252661 -6.510191  0.228708         2

[151 rows x 4 columns]",devJG,01,01,2024-07-16_23h06.14.047,Gratings_vis_devJG_v0.4,2024.1.5,None,2024-07-16 23h06.17.184964 -0400,
