trials.thisRepN,trials.thisTrialN,trials.thisN,trials.thisIndex,thisRow.t,notes,nidaqTrigger.started,text_waiting_message.started,text_waiting_message.stopped,nidaqTrigger.stopped,display_gratings.started,stim_grayScreen.started,stim_grating.started,display_gratings.stopped,participant,session,date,expName,psychopyVersion,frameRate,expStart,
,,,,,,0.013881399994716048,27.06752390001202,27.06752390001202,27.051339199999347,,,,,188769,001,2024-07-03_20h11.03.127,Gratings_vis_stim_devJG_v0.3,2024.1.5,None,2024-07-03 20h11.10.786840 -0400,
0,0,0,0,27.06752390001202,,,,,,27.052462899999227,27.06752390001202,30.054582400014624,32.057162400044035,188769,001,2024-07-03_20h11.03.127,Gratings_vis_stim_devJG_v0.3,2024.1.5,None,2024-07-03 20h11.10.786840 -0400,
1,0,1,0,32.071898700029124,,,,,,32.05742389999796,32.071898700029124,35.058856300020125,37.06123039999511,188769,001,2024-07-03_20h11.03.127,Gratings_vis_stim_devJG_v0.3,2024.1.5,None,2024-07-03 20h11.10.786840 -0400,
2,0,2,0,37.07591750001302,,,,,,37.0614946000278,37.07591750001302,40.06247320002876,42.06524210004136,188769,001,2024-07-03_20h11.03.127,Gratings_vis_stim_devJG_v0.3,2024.1.5,None,2024-07-03 20h11.10.786840 -0400,
3,0,3,0,42.07988920004573,,,,,,42.0655107999919,42.07988920004573,45.06652230001055,47.05266580003081,188769,001,2024-07-03_20h11.03.127,Gratings_vis_stim_devJG_v0.3,2024.1.5,None,2024-07-03 20h11.10.786840 -0400,
4,0,4,0,47.06729100004304,,,,,,47.052974299993366,47.06729100004304,50.05428189999657,52.0565876000328,188769,001,2024-07-03_20h11.03.127,Gratings_vis_stim_devJG_v0.3,2024.1.5,None,2024-07-03 20h11.10.786840 -0400,
5,0,5,0,52.071424500027206,,,,,,52.05684380000457,52.071424500027206,55.0581058000098,57.06079459999455,188769,001,2024-07-03_20h11.03.127,Gratings_vis_stim_devJG_v0.3,2024.1.5,None,2024-07-03 20h11.10.786840 -0400,
6,0,6,0,57.07541740004672,,,,,,57.061057000013534,57.07541740004672,60.06191950000357,62.06470879999688,188769,001,2024-07-03_20h11.03.127,Gratings_vis_stim_devJG_v0.3,2024.1.5,None,2024-07-03 20h11.10.786840 -0400,
7,0,7,0,62.07940809999127,,,,,,62.06498040002771,62.07940809999127,65.06608449999476,67.05193790001795,188769,001,2024-07-03_20h11.03.127,Gratings_vis_stim_devJG_v0.3,2024.1.5,None,2024-07-03 20h11.10.786840 -0400,
8,0,8,0,67.06683740002336,,,,,,67.0522032000008,67.06683740002336,70.05355780001264,72.05593259999296,188769,001,2024-07-03_20h11.03.127,Gratings_vis_stim_devJG_v0.3,2024.1.5,None,2024-07-03 20h11.10.786840 -0400,
9,0,9,0,72.07084540004143,,,,,,72.05619090003893,72.07084540004143,75.05777260003379,77.06030900002224,188769,001,2024-07-03_20h11.03.127,Gratings_vis_stim_devJG_v0.3,2024.1.5,None,2024-07-03 20h11.10.786840 -0400,
10,0,10,0,77.07506050000666,,,,,,77.06056600000011,77.07506050000666,80.06187450001016,82.06555140001001,188769,001,2024-07-03_20h11.03.127,Gratings_vis_stim_devJG_v0.3,2024.1.5,None,2024-07-03 20h11.10.786840 -0400,
11,0,11,0,82.07884420000482,,,,,,82.06607699999586,82.07884420000482,85.06603980000364,87.05156420002459,188769,001,2024-07-03_20h11.03.127,Gratings_vis_stim_devJG_v0.3,2024.1.5,None,2024-07-03 20h11.10.786840 -0400,
12,0,12,0,87.06624030001694,,,,,,87.05182769999374,87.06624030001694,90.0531473000301,92.05722060002154,188769,001,2024-07-03_20h11.03.127,Gratings_vis_stim_devJG_v0.3,2024.1.5,None,2024-07-03 20h11.10.786840 -0400,
13,0,13,0,92.07056690001627,,,,,,92.05775969999377,92.07056690001627,95.05721800000174,97.06092000001809,188769,001,2024-07-03_20h11.03.127,Gratings_vis_stim_devJG_v0.3,2024.1.5,None,2024-07-03 20h11.10.786840 -0400,
14,0,14,0,97.07454000000143,,,,,,97.06144160003169,97.07454000000143,100.06115940003656,102.0636948000174,188769,001,2024-07-03_20h11.03.127,Gratings_vis_stim_devJG_v0.3,2024.1.5,None,2024-07-03 20h11.10.786840 -0400,
15,0,15,0,102.0784937000135,,,,,,102.06395590002649,102.0784937000135,105.06513760000234,107.06781640002737,188769,001,2024-07-03_20h11.03.127,Gratings_vis_stim_devJG_v0.3,2024.1.5,None,2024-07-03 20h11.10.786840 -0400,
16,0,16,0,107.08258039999055,,,,,,107.06808689999161,107.08258039999055,110.0526702000061,112.05516049999278,188769,001,2024-07-03_20h11.03.127,Gratings_vis_stim_devJG_v0.3,2024.1.5,None,2024-07-03 20h11.10.786840 -0400,
17,0,17,0,112.06993930001045,,,,,,112.05541930004256,112.06993930001045,115.05651560000842,117.0593732999987,188769,001,2024-07-03_20h11.03.127,Gratings_vis_stim_devJG_v0.3,2024.1.5,None,2024-07-03 20h11.10.786840 -0400,
18,0,18,0,117.07398640003521,,,,,,117.05963259999407,117.07398640003521,120.0608501000097,122.06320080003934,188769,001,2024-07-03_20h11.03.127,Gratings_vis_stim_devJG_v0.3,2024.1.5,None,2024-07-03 20h11.10.786840 -0400,
19,0,19,0,122.07782270002645,,,,,,122.06346580001991,122.07782270002645,125.06506570003694,127.06703680002829,188769,001,2024-07-03_20h11.03.127,Gratings_vis_stim_devJG_v0.3,2024.1.5,None,2024-07-03 20h11.10.786840 -0400,
20,0,20,0,127.08195810002508,,,,,,127.06729690002976,127.08195810002508,130.0521638999926,132.05460540001513,188769,001,2024-07-03_20h11.03.127,Gratings_vis_stim_devJG_v0.3,2024.1.5,None,2024-07-03 20h11.10.786840 -0400,
21,0,21,0,132.06939890002832,,,,,,132.05486820003716,132.06939890002832,135.05617500003427,137.05880210001487,188769,001,2024-07-03_20h11.03.127,Gratings_vis_stim_devJG_v0.3,2024.1.5,None,2024-07-03 20h11.10.786840 -0400,
22,0,22,0,137.07347790000495,,,,,,137.05906160001177,137.07347790000495,140.06015660002595,142.06269140000222,188769,001,2024-07-03_20h11.03.127,Gratings_vis_stim_devJG_v0.3,2024.1.5,None,2024-07-03 20h11.10.786840 -0400,
23,0,23,0,142.0774143000017,,,,,,142.0629528000136,142.0774143000017,145.06413320003776,147.0666870000423,188769,001,2024-07-03_20h11.03.127,Gratings_vis_stim_devJG_v0.3,2024.1.5,None,2024-07-03 20h11.10.786840 -0400,
24,0,24,0,147.0814794000471,,,,,,147.06695230002515,147.0814794000471,150.05138370004715,152.05411640001694,188769,001,2024-07-03_20h11.03.127,Gratings_vis_stim_devJG_v0.3,2024.1.5,None,2024-07-03 20h11.10.786840 -0400,
25,0,25,0,152.068900400016,,,,,,152.0543781000306,152.068900400016,155.05558770004427,157.05878270004177,188769,001,2024-07-03_20h11.03.127,Gratings_vis_stim_devJG_v0.3,2024.1.5,None,2024-07-03 20h11.10.786840 -0400,
26,0,26,0,157.07300620002206,,,,,,157.05904230003944,157.07300620002206,160.05945820000488,162.06218830001308,188769,001,2024-07-03_20h11.03.127,Gratings_vis_stim_devJG_v0.3,2024.1.5,None,2024-07-03 20h11.10.786840 -0400,
27,0,27,0,162.07696120004402,,,,,,162.06244770000922,162.07696120004402,165.06357800000114,167.0661611999967,188769,001,2024-07-03_20h11.03.127,Gratings_vis_stim_devJG_v0.3,2024.1.5,None,2024-07-03 20h11.10.786840 -0400,
28,0,28,0,167.08098450000398,,,,,,167.06641980004497,167.08098450000398,170.06772740004817,172.05380610004067,188769,001,2024-07-03_20h11.03.127,Gratings_vis_stim_devJG_v0.3,2024.1.5,None,2024-07-03 20h11.10.786840 -0400,
29,0,29,0,172.06842220004182,,,,,,172.05413210002007,172.06842220004182,175.05521730001783,177.05788189999294,188769,001,2024-07-03_20h11.03.127,Gratings_vis_stim_devJG_v0.3,2024.1.5,None,2024-07-03 20h11.10.786840 -0400,
30,0,30,0,177.0723471000092,,,,,,177.05814120004652,177.0723471000092,180.05929689999903,182.0616738999961,188769,001,2024-07-03_20h11.03.127,Gratings_vis_stim_devJG_v0.3,2024.1.5,None,2024-07-03 20h11.10.786840 -0400,
31,0,31,0,182.0764710000367,,,,,,182.06193720002193,182.0764710000367,185.0630718000466,187.0656805000035,188769,001,2024-07-03_20h11.03.127,Gratings_vis_stim_devJG_v0.3,2024.1.5,None,2024-07-03 20h11.10.786840 -0400,
32,0,32,0,187.08033910003724,,,,,,187.06593929999508,187.08033910003724,190.06719120003982,192.0531225000159,188769,001,2024-07-03_20h11.03.127,Gratings_vis_stim_devJG_v0.3,2024.1.5,None,2024-07-03 20h11.10.786840 -0400,
33,0,33,0,192.0679097000393,,,,,,192.05338140000822,192.0679097000393,195.05464750004467,197.05743460002122,188769,001,2024-07-03_20h11.03.127,Gratings_vis_stim_devJG_v0.3,2024.1.5,None,2024-07-03 20h11.10.786840 -0400,
34,0,34,0,197.07195470004808,,,,,,197.05769970000256,197.07195470004808,200.05870130000403,202.06261290004477,188769,001,2024-07-03_20h11.03.127,Gratings_vis_stim_devJG_v0.3,2024.1.5,None,2024-07-03 20h11.10.786840 -0400,
35,0,35,0,202.07589860004373,,,,,,202.06314560002647,202.07589860004373,205.06286900001578,207.0651429000427,188769,001,2024-07-03_20h11.03.127,Gratings_vis_stim_devJG_v0.3,2024.1.5,None,2024-07-03 20h11.10.786840 -0400,
36,0,36,0,207.07993050001096,,,,,,207.06540449999738,207.07993050001096,210.06670670001768,212.0526303999941,188769,001,2024-07-03_20h11.03.127,Gratings_vis_stim_devJG_v0.3,2024.1.5,None,2024-07-03 20h11.10.786840 -0400,
37,0,37,0,212.06741730001522,,,,,,212.0528886000393,212.06741730001522,215.05411760002607,217.0569353000028,188769,001,2024-07-03_20h11.03.127,Gratings_vis_stim_devJG_v0.3,2024.1.5,None,2024-07-03 20h11.10.786840 -0400,
38,0,38,0,217.0714848000207,,,,,,217.05719940003473,217.0714848000207,220.05820369999856,222.06078300002264,188769,001,2024-07-03_20h11.03.127,Gratings_vis_stim_devJG_v0.3,2024.1.5,None,2024-07-03 20h11.10.786840 -0400,
39,0,39,0,222.07545510004275,,,,,,222.06104970001616,222.07545510004275,225.06197989999782,227.06470420002006,188769,001,2024-07-03_20h11.03.127,Gratings_vis_stim_devJG_v0.3,2024.1.5,None,2024-07-03 20h11.10.786840 -0400,
40,0,40,0,227.07947070000228,,,,,,227.0649649000261,227.07947070000228,230.06608850002522,232.05212629999733,188769,001,2024-07-03_20h11.03.127,Gratings_vis_stim_devJG_v0.3,2024.1.5,None,2024-07-03 20h11.10.786840 -0400,
41,0,41,0,232.0669245000463,,,,,,232.05238260002807,232.0669245000463,235.0534888000111,237.0566171000246,188769,001,2024-07-03_20h11.03.127,Gratings_vis_stim_devJG_v0.3,2024.1.5,None,2024-07-03 20h11.10.786840 -0400,
42,0,42,0,237.07099929999094,,,,,,237.0569247000385,237.07099929999094,240.05781980004394,242.06025159999263,188769,001,2024-07-03_20h11.03.127,Gratings_vis_stim_devJG_v0.3,2024.1.5,None,2024-07-03 20h11.10.786840 -0400,
43,0,43,0,242.07497390004573,,,,,,242.06051860004663,242.07497390004573,245.06155270000454,247.06423960003303,188769,001,2024-07-03_20h11.03.127,Gratings_vis_stim_devJG_v0.3,2024.1.5,None,2024-07-03 20h11.10.786840 -0400,
44,0,44,0,247.0789417999913,,,,,,247.06449950003298,247.0789417999913,250.0656169000431,252.0515776000102,188769,001,2024-07-03_20h11.03.127,Gratings_vis_stim_devJG_v0.3,2024.1.5,None,2024-07-03 20h11.10.786840 -0400,
45,0,45,0,252.06630760000553,,,,,,252.0518376000109,252.06630760000553,255.05326050001895,257.0557304000249,188769,001,2024-07-03_20h11.03.127,Gratings_vis_stim_devJG_v0.3,2024.1.5,None,2024-07-03 20h11.10.786840 -0400,
46,0,46,0,257.0703441000078,,,,,,257.05599369999254,257.0703441000078,260.0572403999977,262.0598450000398,188769,001,2024-07-03_20h11.03.127,Gratings_vis_stim_devJG_v0.3,2024.1.5,None,2024-07-03 20h11.10.786840 -0400,
47,0,47,0,262.07454380003037,,,,,,262.0601088000112,262.07454380003037,265.06119750003563,267.06356580002466,188769,001,2024-07-03_20h11.03.127,Gratings_vis_stim_devJG_v0.3,2024.1.5,None,2024-07-03 20h11.10.786840 -0400,
48,0,48,0,267.0782888000249,,,,,,267.0638283000444,267.0782888000249,270.0651708000223,272.067863400036,188769,001,2024-07-03_20h11.03.127,Gratings_vis_stim_devJG_v0.3,2024.1.5,None,2024-07-03 20h11.10.786840 -0400,
49,0,49,0,272.08249320002506,,,,,,272.06812170002377,272.08249320002506,275.0526030000183,277.05539829999907,188769,001,2024-07-03_20h11.03.127,Gratings_vis_stim_devJG_v0.3,2024.1.5,None,2024-07-03 20h11.10.786840 -0400,
50,0,50,0,277.0699932000134,,,,,,277.0556547000306,277.0699932000134,280.05680220003705,282.05911750002997,188769,001,2024-07-03_20h11.03.127,Gratings_vis_stim_devJG_v0.3,2024.1.5,None,2024-07-03 20h11.10.786840 -0400,
51,0,51,0,282.0738935000263,,,,,,282.05938460002653,282.0738935000263,285.0609865000006,287.06497900001705,188769,001,2024-07-03_20h11.03.127,Gratings_vis_stim_devJG_v0.3,2024.1.5,None,2024-07-03 20h11.10.786840 -0400,
52,0,52,0,287.07799499999965,,,,,,287.0655114999972,287.07799499999965,290.064761799993,292.05200150003657,188769,001,2024-07-03_20h11.03.127,Gratings_vis_stim_devJG_v0.3,2024.1.5,None,2024-07-03 20h11.10.786840 -0400,
53,0,53,0,292.06547890004003,,,,,,292.05253450002056,292.06547890004003,295.0521698000375,297.054641900002,188769,001,2024-07-03_20h11.03.127,Gratings_vis_stim_devJG_v0.3,2024.1.5,None,2024-07-03 20h11.10.786840 -0400,
54,0,54,0,297.06948390003527,,,,,,297.0549051000271,297.06948390003527,300.0567154000164,302.0587893000338,188769,001,2024-07-03_20h11.03.127,Gratings_vis_stim_devJG_v0.3,2024.1.5,None,2024-07-03 20h11.10.786840 -0400,
55,0,55,0,302.0735357000376,,,,,,302.05905390001135,302.0735357000376,305.0600667000399,307.0627213999978,188769,001,2024-07-03_20h11.03.127,Gratings_vis_stim_devJG_v0.3,2024.1.5,None,2024-07-03 20h11.10.786840 -0400,
56,0,56,0,307.0775382000138,,,,,,307.06298660003813,307.0775382000138,310.06418780004606,312.06695150001906,188769,001,2024-07-03_20h11.03.127,Gratings_vis_stim_devJG_v0.3,2024.1.5,None,2024-07-03 20h11.10.786840 -0400,
57,0,57,0,312.0816349000088,,,,,,312.0674064999912,312.0816349000088,315.05175710003823,317.0556368000107,188769,001,2024-07-03_20h11.03.127,Gratings_vis_stim_devJG_v0.3,2024.1.5,None,2024-07-03 20h11.10.786840 -0400,
58,0,58,0,317.0690360000008,,,,,,317.0561557000037,317.0690360000008,320.05569870001636,322.05811600002926,188769,001,2024-07-03_20h11.03.127,Gratings_vis_stim_devJG_v0.3,2024.1.5,None,2024-07-03 20h11.10.786840 -0400,
59,0,59,0,322.0729719999945,,,,,,322.0583725000033,322.0729719999945,325.059663299995,327.0622680000379,188769,001,2024-07-03_20h11.03.127,Gratings_vis_stim_devJG_v0.3,2024.1.5,None,2024-07-03 20h11.10.786840 -0400,
60,0,60,0,327.07704190001823,,,,,,327.0625321000116,327.07704190001823,330.0639046000433,332.0676078000106,188769,001,2024-07-03_20h11.03.127,Gratings_vis_stim_devJG_v0.3,2024.1.5,None,2024-07-03 20h11.10.786840 -0400,
61,0,61,0,332.08119180001086,,,,,,332.06815950002056,332.08119180001086,335.0513535999926,337.0538329000119,188769,001,2024-07-03_20h11.03.127,Gratings_vis_stim_devJG_v0.3,2024.1.5,None,2024-07-03 20h11.10.786840 -0400,
62,0,62,0,337.0683899000287,,,,,,337.0542091000243,337.0683899000287,340.055349900038,342.0577733000391,188769,001,2024-07-03_20h11.03.127,Gratings_vis_stim_devJG_v0.3,2024.1.5,None,2024-07-03 20h11.10.786840 -0400,
63,0,63,0,342.0725125000463,,,,,,342.0580416000448,342.0725125000463,345.0591306000133,347.06169140001293,188769,001,2024-07-03_20h11.03.127,Gratings_vis_stim_devJG_v0.3,2024.1.5,None,2024-07-03 20h11.10.786840 -0400,
64,0,64,0,347.07649639999727,,,,,,347.06195730000036,347.07649639999727,350.06343909999123,352.0658156000427,188769,001,2024-07-03_20h11.03.127,Gratings_vis_stim_devJG_v0.3,2024.1.5,None,2024-07-03 20h11.10.786840 -0400,
65,0,65,0,352.08065320004243,,,,,,352.06608060002327,352.08065320004243,355.0676070000045,357.05330790003063,188769,001,2024-07-03_20h11.03.127,Gratings_vis_stim_devJG_v0.3,2024.1.5,None,2024-07-03 20h11.10.786840 -0400,
66,0,66,0,357.06802210002206,,,,,,357.05356740002753,357.06802210002206,360.05517300002975,362.05726249999134,188769,001,2024-07-03_20h11.03.127,Gratings_vis_stim_devJG_v0.3,2024.1.5,None,2024-07-03 20h11.10.786840 -0400,
67,0,67,0,362.071997800027,,,,,,362.0575213000411,362.071997800027,365.05894240003545,367.061246199999,188769,001,2024-07-03_20h11.03.127,Gratings_vis_stim_devJG_v0.3,2024.1.5,None,2024-07-03 20h11.10.786840 -0400,
68,0,68,0,367.0760422000312,,,,,,367.06151180004235,367.0760422000312,370.0629452000139,372.0652860000264,188769,001,2024-07-03_20h11.03.127,Gratings_vis_stim_devJG_v0.3,2024.1.5,None,2024-07-03 20h11.10.786840 -0400,
69,0,69,0,372.08001720003085,,,,,,372.065548899991,372.08001720003085,375.0667172000394,377.05278960004216,188769,001,2024-07-03_20h11.03.127,Gratings_vis_stim_devJG_v0.3,2024.1.5,None,2024-07-03 20h11.10.786840 -0400,
70,0,70,0,377.06754970003385,,,,,,377.0530461000162,377.06754970003385,380.0543256000383,382.05685910000466,188769,001,2024-07-03_20h11.03.127,Gratings_vis_stim_devJG_v0.3,2024.1.5,None,2024-07-03 20h11.10.786840 -0400,
71,0,71,0,382.0715737999999,,,,,,382.0571171999909,382.0715737999999,385.0583050000132,387.0606411000481,188769,001,2024-07-03_20h11.03.127,Gratings_vis_stim_devJG_v0.3,2024.1.5,None,2024-07-03 20h11.10.786840 -0400,
72,0,72,0,387.07536040002014,,,,,,387.06090219999896,387.07536040002014,390.0623862000066,392.0648661000305,188769,001,2024-07-03_20h11.03.127,Gratings_vis_stim_devJG_v0.3,2024.1.5,None,2024-07-03 20h11.10.786840 -0400,
73,0,73,0,392.07967100001406,,,,,,392.0651294999989,392.07967100001406,395.06633450003574,397.0522656000103,188769,001,2024-07-03_20h11.03.127,Gratings_vis_stim_devJG_v0.3,2024.1.5,None,2024-07-03 20h11.10.786840 -0400,
74,0,74,0,397.0670440000249,,,,,,397.0525328000076,397.0670440000249,400.0538907000446,402.05641310004285,188769,001,2024-07-03_20h11.03.127,Gratings_vis_stim_devJG_v0.3,2024.1.5,None,2024-07-03 20h11.10.786840 -0400,
75,0,75,0,402.07092930004,,,,,,402.0568988000159,402.07092930004,405.0575591000379,407.0602649000357,188769,001,2024-07-03_20h11.03.127,Gratings_vis_stim_devJG_v0.3,2024.1.5,None,2024-07-03 20h11.10.786840 -0400,
76,0,76,0,407.0748853000114,,,,,,407.0605340000475,407.0748853000114,410.0619103999925,412.0659335000091,188769,001,2024-07-03_20h11.03.127,Gratings_vis_stim_devJG_v0.3,2024.1.5,None,2024-07-03 20h11.10.786840 -0400,
77,0,77,0,412.07906070002355,,,,,,412.06621860002633,412.07906070002355,415.06592050002655,417.0517476000241,188769,001,2024-07-03_20h11.03.127,Gratings_vis_stim_devJG_v0.3,2024.1.5,None,2024-07-03 20h11.10.786840 -0400,
78,0,78,0,417.06642089999514,,,,,,417.05201450001914,417.06642089999514,420.0534733000095,422.05592610000167,188769,001,2024-07-03_20h11.03.127,Gratings_vis_stim_devJG_v0.3,2024.1.5,None,2024-07-03 20h11.10.786840 -0400,
79,0,79,0,422.0706044000108,,,,,,422.05618770001456,422.0706044000108,425.0572584000183,427.05975010001566,188769,001,2024-07-03_20h11.03.127,Gratings_vis_stim_devJG_v0.3,2024.1.5,None,2024-07-03 20h11.10.786840 -0400,
80,0,80,0,427.0746363000362,,,,,,427.0600098000141,427.0746363000362,430.06143880001036,432.0638669000473,188769,001,2024-07-03_20h11.03.127,Gratings_vis_stim_devJG_v0.3,2024.1.5,None,2024-07-03 20h11.10.786840 -0400,
81,0,81,0,432.0786880000378,,,,,,432.06413720001,432.0786880000378,435.06528249999974,437.06796190002933,188769,001,2024-07-03_20h11.03.127,Gratings_vis_stim_devJG_v0.3,2024.1.5,None,2024-07-03 20h11.10.786840 -0400,
82,0,82,0,437.0827330000466,,,,,,437.0682434000191,437.0827330000466,440.0529411000316,442.05558949999977,188769,001,2024-07-03_20h11.03.127,Gratings_vis_stim_devJG_v0.3,2024.1.5,None,2024-07-03 20h11.10.786840 -0400,
83,0,83,0,442.0703097000369,,,,,,442.05586510000285,442.0703097000369,445.0565583000425,447.0592819000012,188769,001,2024-07-03_20h11.03.127,Gratings_vis_stim_devJG_v0.3,2024.1.5,None,2024-07-03 20h11.10.786840 -0400,
84,0,84,0,447.0740250000381,,,,,,447.0595489999978,447.0740250000381,450.06051909999223,452.0634001000435,188769,001,2024-07-03_20h11.03.127,Gratings_vis_stim_devJG_v0.3,2024.1.5,None,2024-07-03 20h11.10.786840 -0400,
85,0,85,0,452.07819319999544,,,,,,452.0636637000134,452.07819319999544,455.06491850002203,457.0519331000396,188769,001,2024-07-03_20h11.03.127,Gratings_vis_stim_devJG_v0.3,2024.1.5,None,2024-07-03 20h11.10.786840 -0400,
86,0,86,0,457.0654446000117,,,,,,457.0524604000384,457.0654446000117,460.05254950001836,462.0549954000162,188769,001,2024-07-03_20h11.03.127,Gratings_vis_stim_devJG_v0.3,2024.1.5,None,2024-07-03 20h11.10.786840 -0400,
87,0,87,0,462.0698390000034,,,,,,462.0552539000055,462.0698390000034,465.0565914000035,467.05880190001335,188769,001,2024-07-03_20h11.03.127,Gratings_vis_stim_devJG_v0.3,2024.1.5,None,2024-07-03 20h11.10.786840 -0400,
88,0,88,0,467.0736511000432,,,,,,467.0590629000217,467.0736511000432,470.06009270000504,472.0644012000412,188769,001,2024-07-03_20h11.03.127,Gratings_vis_stim_devJG_v0.3,2024.1.5,None,2024-07-03 20h11.10.786840 -0400,
89,0,89,0,472.0777304000221,,,,,,472.0649256000179,472.0777304000221,475.0644453000277,477.0669618000393,188769,001,2024-07-03_20h11.03.127,Gratings_vis_stim_devJG_v0.3,2024.1.5,None,2024-07-03 20h11.10.786840 -0400,
90,0,90,0,477.0817394000478,,,,,,477.0672199000255,477.0817394000478,480.0520503000007,482.056197900034,188769,001,2024-07-03_20h11.03.127,Gratings_vis_stim_devJG_v0.3,2024.1.5,None,2024-07-03 20h11.10.786840 -0400,
91,0,91,0,482.06917239999166,,,,,,482.05672170000616,482.06917239999166,485.05597710004076,487.05829140002606,188769,001,2024-07-03_20h11.03.127,Gratings_vis_stim_devJG_v0.3,2024.1.5,None,2024-07-03 20h11.10.786840 -0400,
92,0,92,0,487.072911700001,,,,,,487.05855150002753,487.072911700001,490.06000940001104,492.0623719000141,188769,001,2024-07-03_20h11.03.127,Gratings_vis_stim_devJG_v0.3,2024.1.5,None,2024-07-03 20h11.10.786840 -0400,
93,0,93,0,492.0770660000271,,,,,,492.06263130001025,492.0770660000271,495.0638908999972,497.0665154000162,188769,001,2024-07-03_20h11.03.127,Gratings_vis_stim_devJG_v0.3,2024.1.5,None,2024-07-03 20h11.10.786840 -0400,
94,0,94,0,497.0812580999918,,,,,,497.06677530001616,497.0812580999918,500.05157930002315,502.0539911999949,188769,001,2024-07-03_20h11.03.127,Gratings_vis_stim_devJG_v0.3,2024.1.5,None,2024-07-03 20h11.10.786840 -0400,
95,0,95,0,502.06876930000726,,,,,,502.0542497000424,502.06876930000726,505.05565759999445,507.05776490003336,188769,001,2024-07-03_20h11.03.127,Gratings_vis_stim_devJG_v0.3,2024.1.5,None,2024-07-03 20h11.10.786840 -0400,
96,0,96,0,507.0726076000137,,,,,,507.05804200004786,507.0726076000137,510.05914760002634,512.0635714000091,188769,001,2024-07-03_20h11.03.127,Gratings_vis_stim_devJG_v0.3,2024.1.5,None,2024-07-03 20h11.10.786840 -0400,
97,0,97,0,512.0768796000048,,,,,,512.0641029000399,512.0768796000048,515.0633166999905,517.0659938000026,188769,001,2024-07-03_20h11.03.127,Gratings_vis_stim_devJG_v0.3,2024.1.5,None,2024-07-03 20h11.10.786840 -0400,
98,0,98,0,517.0807924999972,,,,,,517.0662609999999,517.0807924999972,520.0677952000406,522.0535738000181,188769,001,2024-07-03_20h11.03.127,Gratings_vis_stim_devJG_v0.3,2024.1.5,None,2024-07-03 20h11.10.786840 -0400,
99,0,99,0,522.0683077000431,,,,,,522.0538306999952,522.0683077000431,525.0548806000152,527.0573985000374,188769,001,2024-07-03_20h11.03.127,Gratings_vis_stim_devJG_v0.3,2024.1.5,None,2024-07-03 20h11.10.786840 -0400,
100,0,100,0,527.0721574000199,,,,,,527.0576550000114,527.0721574000199,530.0587495000218,532.0627145000035,188769,001,2024-07-03_20h11.03.127,Gratings_vis_stim_devJG_v0.3,2024.1.5,None,2024-07-03 20h11.10.786840 -0400,
101,0,101,0,532.0764295000117,,,,,,532.0632340000011,532.0764295000117,535.0629952000454,537.0655021000421,188769,001,2024-07-03_20h11.03.127,Gratings_vis_stim_devJG_v0.3,2024.1.5,None,2024-07-03 20h11.10.786840 -0400,
102,0,102,0,537.0802825000137,,,,,,537.0657596000237,537.0802825000137,540.0674160000053,542.0545325000421,188769,001,2024-07-03_20h11.03.127,Gratings_vis_stim_devJG_v0.3,2024.1.5,None,2024-07-03 20h11.10.786840 -0400,
103,0,103,0,542.0679882999975,,,,,,542.0550547000021,542.0679882999975,545.0542187000392,547.0567453000112,188769,001,2024-07-03_20h11.03.127,Gratings_vis_stim_devJG_v0.3,2024.1.5,None,2024-07-03 20h11.10.786840 -0400,
104,0,104,0,547.0716545000323,,,,,,547.057003599999,547.0716545000323,550.0585758000379,552.0609891000204,188769,001,2024-07-03_20h11.03.127,Gratings_vis_stim_devJG_v0.3,2024.1.5,None,2024-07-03 20h11.10.786840 -0400,
105,0,105,0,552.0757561000064,,,,,,552.0612533999956,552.0757561000064,555.0623056000331,557.0649740000372,188769,001,2024-07-03_20h11.03.127,Gratings_vis_stim_devJG_v0.3,2024.1.5,None,2024-07-03 20h11.10.786840 -0400,
106,0,106,0,557.0797791000223,,,,,,557.0653088000254,557.0797791000223,560.0667586000054,562.0539980000467,188769,001,2024-07-03_20h11.03.127,Gratings_vis_stim_devJG_v0.3,2024.1.5,None,2024-07-03 20h11.10.786840 -0400,
107,0,107,0,562.0673887000303,,,,,,562.0545165000367,562.0673887000303,565.0542443000013,567.0563397000078,188769,001,2024-07-03_20h11.03.127,Gratings_vis_stim_devJG_v0.3,2024.1.5,None,2024-07-03 20h11.10.786840 -0400,
108,0,108,0,567.071114499995,,,,,,567.0565976999933,567.071114499995,570.05793000001,572.0604118000483,188769,001,2024-07-03_20h11.03.127,Gratings_vis_stim_devJG_v0.3,2024.1.5,None,2024-07-03 20h11.10.786840 -0400,
109,0,109,0,572.0752587000025,,,,,,572.0606731000007,572.0752587000025,575.0621021999978,577.0645003000391,188769,001,2024-07-03_20h11.03.127,Gratings_vis_stim_devJG_v0.3,2024.1.5,None,2024-07-03 20h11.10.786840 -0400,
110,0,110,0,577.079304200015,,,,,,577.064753600047,577.079304200015,580.0660039000213,582.0519687000196,188769,001,2024-07-03_20h11.03.127,Gratings_vis_stim_devJG_v0.3,2024.1.5,None,2024-07-03 20h11.10.786840 -0400,
111,0,111,0,582.0666705000331,,,,,,582.0522429000121,582.0666705000331,585.0531712000375,587.0557235000306,188769,001,2024-07-03_20h11.03.127,Gratings_vis_stim_devJG_v0.3,2024.1.5,None,2024-07-03 20h11.10.786840 -0400,
112,0,112,0,587.0705743000144,,,,,,587.0559871000005,587.0705743000144,590.0584235000424,592.0599900000379,188769,001,2024-07-03_20h11.03.127,Gratings_vis_stim_devJG_v0.3,2024.1.5,None,2024-07-03 20h11.10.786840 -0400,
113,0,113,0,592.0748843000038,,,,,,592.0602917000069,592.0748843000038,595.0616425999906,597.0640067000058,188769,001,2024-07-03_20h11.03.127,Gratings_vis_stim_devJG_v0.3,2024.1.5,None,2024-07-03 20h11.10.786840 -0400,
114,0,114,0,597.0788212000043,,,,,,597.064260300016,597.0788212000043,600.065632700047,602.0516052000457,188769,001,2024-07-03_20h11.03.127,Gratings_vis_stim_devJG_v0.3,2024.1.5,None,2024-07-03 20h11.10.786840 -0400,
115,0,115,0,602.0661243000068,,,,,,602.0518725000438,602.0661243000068,605.0528331000241,607.055136000039,188769,001,2024-07-03_20h11.03.127,Gratings_vis_stim_devJG_v0.3,2024.1.5,None,2024-07-03 20h11.10.786840 -0400,
116,0,116,0,607.0699943000218,,,,,,607.0553939000238,607.0699943000218,610.0566973999958,612.0597547999932,188769,001,2024-07-03_20h11.03.127,Gratings_vis_stim_devJG_v0.3,2024.1.5,None,2024-07-03 20h11.10.786840 -0400,
117,0,117,0,612.0741642999928,,,,,,612.0603312000167,612.0741642999928,615.0609661000199,617.0635449000401,188769,001,2024-07-03_20h11.03.127,Gratings_vis_stim_devJG_v0.3,2024.1.5,None,2024-07-03 20h11.10.786840 -0400,
118,0,118,0,617.0783131000353,,,,,,617.0638039000332,617.0783131000353,620.0651655000402,622.0678509999998,188769,001,2024-07-03_20h11.03.127,Gratings_vis_stim_devJG_v0.3,2024.1.5,None,2024-07-03 20h11.10.786840 -0400,
119,0,119,0,622.0824795000372,,,,,,622.0681103999959,622.0824795000372,625.0522018999909,627.0550442000385,188769,001,2024-07-03_20h11.03.127,Gratings_vis_stim_devJG_v0.3,2024.1.5,None,2024-07-03 20h11.10.786840 -0400,
120,0,120,0,627.0697053000331,,,,,,627.0555955000455,627.0697053000331,630.0563967000344,632.0590629000217,188769,001,2024-07-03_20h11.03.127,Gratings_vis_stim_devJG_v0.3,2024.1.5,None,2024-07-03 20h11.10.786840 -0400,
121,0,121,0,632.0738445000025,,,,,,632.0593718000455,632.0738445000025,635.0607616000343,637.0634134000284,188769,001,2024-07-03_20h11.03.127,Gratings_vis_stim_devJG_v0.3,2024.1.5,None,2024-07-03 20h11.10.786840 -0400,
122,0,122,0,637.0778432000079,,,,,,637.0636802000226,637.0778432000079,640.0646140000317,642.0673142000451,188769,001,2024-07-03_20h11.03.127,Gratings_vis_stim_devJG_v0.3,2024.1.5,None,2024-07-03 20h11.10.786840 -0400,
123,0,123,0,642.0819586000289,,,,,,642.0675688000047,642.0819586000289,645.0519287000061,647.0542331000324,188769,001,2024-07-03_20h11.03.127,Gratings_vis_stim_devJG_v0.3,2024.1.5,None,2024-07-03 20h11.10.786840 -0400,
124,0,124,0,647.0690143000102,,,,,,647.0544930000324,647.0690143000102,650.0558186999988,652.0584826000268,188769,001,2024-07-03_20h11.03.127,Gratings_vis_stim_devJG_v0.3,2024.1.5,None,2024-07-03 20h11.10.786840 -0400,
125,0,125,0,652.07320600003,,,,,,652.0587399000069,652.07320600003,655.060177300009,657.062550600036,188769,001,2024-07-03_20h11.03.127,Gratings_vis_stim_devJG_v0.3,2024.1.5,None,2024-07-03 20h11.10.786840 -0400,
126,0,126,0,657.0773564000265,,,,,,657.0628054999979,657.0773564000265,660.0639139999985,662.0669170000474,188769,001,2024-07-03_20h11.03.127,Gratings_vis_stim_devJG_v0.3,2024.1.5,None,2024-07-03 20h11.10.786840 -0400,
127,0,127,0,662.0814723999938,,,,,,662.0671743000275,662.0814723999938,665.0514307999983,667.0538856000057,188769,001,2024-07-03_20h11.03.127,Gratings_vis_stim_devJG_v0.3,2024.1.5,None,2024-07-03 20h11.10.786840 -0400,
