trials.thisRepN,trials.thisTrialN,trials.thisN,trials.thisIndex,thisRow.t,notes,buildGratings.started,buildGratings.stopped,grating_angle.expStartVal,display_gratings.started,stim_grating.started,stim_grating.stopped,stim_grayScreen.started,stim_grayScreen.stopped,display_gratings.stopped,grating_angle.endExpVal,participant,session,date,expName,psychopyVersion,frameRate,expStart,
,,,,,,0.018658499997400213,0.0188748999935342,0,,,,,,,,855682,001,2024-06-28_12h31.53.487,Gratings_vis_stim_devJG_v0.2,2024.1.5,None,2024-06-28 12h31.57.802627 -0400,
0,0,0,0,0.03512609999597771,,,,,0.019328399997903034,0.03512609999597771,2.0535691999975825,2.0535691999975825,5.056868299994676,5.0403268999943975,,855682,001,2024-06-28_12h31.53.487,Gratings_vis_stim_devJG_v0.2,2024.1.5,None,2024-06-28 12h31.57.802627 -0400,
1,0,1,0,5.056868299994676,,,,,5.040607799994177,5.056868299994676,7.057739999996556,7.057739999996556,10.061066599999322,10.044370399999025,,855682,001,2024-06-28_12h31.53.487,Gratings_vis_stim_devJG_v0.2,2024.1.5,None,2024-06-28 12h31.57.802627 -0400,
2,0,2,0,10.061066599999322,,,,,10.04464249999728,10.061066599999322,12.061725199993816,12.061725199993816,15.06467299999349,15.048415599994769,,855682,001,2024-06-28_12h31.53.487,Gratings_vis_stim_devJG_v0.2,2024.1.5,None,2024-06-28 12h31.57.802627 -0400,
3,0,3,0,15.06467299999349,,,,,15.048700399995141,15.06467299999349,17.0657843999943,17.0657843999943,20.06909689999884,20.052299099996162,,855682,001,2024-06-28_12h31.53.487,Gratings_vis_stim_devJG_v0.2,2024.1.5,None,2024-06-28 12h31.57.802627 -0400,
4,0,4,0,20.06909689999884,,,,,20.052568399994925,20.06909689999884,22.069395699996676,22.069395699996676,25.073151299999154,25.056405899995298,,855682,001,2024-06-28_12h31.53.487,Gratings_vis_stim_devJG_v0.2,2024.1.5,None,2024-06-28 12h31.57.802627 -0400,
5,0,5,0,25.073151299999154,,,,,25.05667039999389,25.073151299999154,27.073918399997638,27.073918399997638,30.07730509999965,30.06073969999852,,855682,001,2024-06-28_12h31.53.487,Gratings_vis_stim_devJG_v0.2,2024.1.5,None,2024-06-28 12h31.57.802627 -0400,
6,0,6,0,30.07730509999965,,,,,30.061014899998554,30.07730509999965,32.07816929999535,32.07816929999535,35.081280499995046,35.06447709999338,,855682,001,2024-06-28_12h31.53.487,Gratings_vis_stim_devJG_v0.2,2024.1.5,None,2024-06-28 12h31.57.802627 -0400,
7,0,7,0,35.081280499995046,,,,,35.064749199998914,35.081280499995046,37.08181209999748,37.08181209999748,40.084896099993784,40.06854259999818,,855682,001,2024-06-28_12h31.53.487,Gratings_vis_stim_devJG_v0.2,2024.1.5,None,2024-06-28 12h31.57.802627 -0400,
8,0,8,0,40.084896099993784,,,,,40.068821499997284,40.084896099993784,42.085869799993816,42.085869799993816,45.089395699993474,45.07260580000002,,855682,001,2024-06-28_12h31.53.487,Gratings_vis_stim_devJG_v0.2,2024.1.5,None,2024-06-28 12h31.57.802627 -0400,
9,0,9,0,45.089395699993474,,,,,45.072870899995905,45.089395699993474,47.090111599995,47.090111599995,50.093550399993546,50.07668989999365,,855682,001,2024-06-28_12h31.53.487,Gratings_vis_stim_devJG_v0.2,2024.1.5,None,2024-06-28 12h31.57.802627 -0400,
10,0,10,0,50.093550399993546,,,,,50.076956099997915,50.093550399993546,52.094292199995834,52.094292199995834,55.09738490000018,55.08074089999718,,855682,001,2024-06-28_12h31.53.487,Gratings_vis_stim_devJG_v0.2,2024.1.5,None,2024-06-28 12h31.57.802627 -0400,
11,0,11,0,55.09738490000018,,,,,55.081009199995606,55.09738490000018,57.09797629999957,57.09797629999957,60.10149259999889,60.08471060000011,,855682,001,2024-06-28_12h31.53.487,Gratings_vis_stim_devJG_v0.2,2024.1.5,None,2024-06-28 12h31.57.802627 -0400,
12,0,12,0,60.10149259999889,,,,,60.08497829999396,60.10149259999889,62.102244800000335,62.102244800000335,65.1053763999953,65.09030019999773,,855682,001,2024-06-28_12h31.53.487,Gratings_vis_stim_devJG_v0.2,2024.1.5,None,2024-06-28 12h31.57.802627 -0400,
13,0,13,0,65.1053763999953,,,,,65.09083349999855,65.1053763999953,67.10632869999972,67.10632869999972,70.10976699999446,70.09297529999458,,855682,001,2024-06-28_12h31.53.487,Gratings_vis_stim_devJG_v0.2,2024.1.5,None,2024-06-28 12h31.57.802627 -0400,
14,0,14,0,70.10976699999446,,,,,70.09324299999571,70.10976699999446,72.11046859999624,72.11046859999624,75.11372399999527,75.09692539999378,,855682,001,2024-06-28_12h31.53.487,Gratings_vis_stim_devJG_v0.2,2024.1.5,None,2024-06-28 12h31.57.802627 -0400,
15,0,15,0,75.11372399999527,,,,,75.0971955999994,75.11372399999527,77.11434699999518,77.11434699999518,80.11772509999719,80.10087709999789,,855682,001,2024-06-28_12h31.53.487,Gratings_vis_stim_devJG_v0.2,2024.1.5,None,2024-06-28 12h31.57.802627 -0400,
16,0,16,0,80.11772509999719,,,,,80.10115170000063,80.11772509999719,82.11825159999717,82.11825159999717,85.12158729999646,85.10497809999652,,855682,001,2024-06-28_12h31.53.487,Gratings_vis_stim_devJG_v0.2,2024.1.5,None,2024-06-28 12h31.57.802627 -0400,
17,0,17,0,85.12158729999646,,,,,85.10524710000027,85.12158729999646,87.12231669999892,87.12231669999892,90.12596679999842,90.10907790000056,,855682,001,2024-06-28_12h31.53.487,Gratings_vis_stim_devJG_v0.2,2024.1.5,None,2024-06-28 12h31.57.802627 -0400,
18,0,18,0,90.12596679999842,,,,,90.10934319999797,90.12596679999842,92.12663629999588,92.12663629999588,95.12985109999863,95.11311029999342,,855682,001,2024-06-28_12h31.53.487,Gratings_vis_stim_devJG_v0.2,2024.1.5,None,2024-06-28 12h31.57.802627 -0400,
19,0,19,0,95.12985109999863,,,,,95.11337599999388,95.12985109999863,97.13059659999999,97.13059659999999,100.1337222000002,100.11720329999662,,855682,001,2024-06-28_12h31.53.487,Gratings_vis_stim_devJG_v0.2,2024.1.5,None,2024-06-28 12h31.57.802627 -0400,
20,0,20,0,100.1337222000002,,,,,100.1174749999991,100.1337222000002,102.1346121999959,102.1346121999959,105.13796960000036,105.12137969999458,,855682,001,2024-06-28_12h31.53.487,Gratings_vis_stim_devJG_v0.2,2024.1.5,None,2024-06-28 12h31.57.802627 -0400,
21,0,21,0,105.13796960000036,,,,,105.12164499999926,105.13796960000036,107.13845429999492,107.13845429999492,110.14213960000052,110.12572989999899,,855682,001,2024-06-28_12h31.53.487,Gratings_vis_stim_devJG_v0.2,2024.1.5,None,2024-06-28 12h31.57.802627 -0400,
22,0,22,0,110.14213960000052,,,,,110.12599499999487,110.14213960000052,112.14282079999975,112.14282079999975,115.14607849999447,115.12928749999992,,855682,001,2024-06-28_12h31.53.487,Gratings_vis_stim_devJG_v0.2,2024.1.5,None,2024-06-28 12h31.57.802627 -0400,
23,0,23,0,115.14607849999447,,,,,115.129554799998,115.14607849999447,117.14658570000029,117.14658570000029,120.15007689999766,120.13336439999694,,855682,001,2024-06-28_12h31.53.487,Gratings_vis_stim_devJG_v0.2,2024.1.5,None,2024-06-28 12h31.57.802627 -0400,
24,0,24,0,120.15007689999766,,,,,120.13363269999536,120.15007689999766,122.15077399999427,122.15077399999427,125.15416809999442,125.13741339999979,,855682,001,2024-06-28_12h31.53.487,Gratings_vis_stim_devJG_v0.2,2024.1.5,None,2024-06-28 12h31.57.802627 -0400,
25,0,25,0,125.15416809999442,,,,,125.1376775999961,125.15416809999442,127.15475539999898,127.15475539999898,130.1584681999957,130.14142079999874,,855682,001,2024-06-28_12h31.53.487,Gratings_vis_stim_devJG_v0.2,2024.1.5,None,2024-06-28 12h31.57.802627 -0400,
26,0,26,0,130.1584681999957,,,,,130.14169019999827,130.1584681999957,132.15898939999897,132.15898939999897,135.16208729999926,135.145171199998,,855682,001,2024-06-28_12h31.53.487,Gratings_vis_stim_devJG_v0.2,2024.1.5,None,2024-06-28 12h31.57.802627 -0400,
27,0,27,0,135.16208729999926,,,,,135.1454448999939,135.16208729999926,137.16290060000028,137.16290060000028,140.16580509999767,140.1496274999954,,855682,001,2024-06-28_12h31.53.487,Gratings_vis_stim_devJG_v0.2,2024.1.5,None,2024-06-28 12h31.57.802627 -0400,
28,0,28,0,140.16580509999767,,,,,140.14989599999535,140.16580509999767,142.1670457999935,142.1670457999935,145.17034079999576,145.15368630000012,,855682,001,2024-06-28_12h31.53.487,Gratings_vis_stim_devJG_v0.2,2024.1.5,None,2024-06-28 12h31.57.802627 -0400,
29,0,29,0,145.17034079999576,,,,,145.15395989999524,145.17034079999576,147.1710419999945,147.1710419999945,150.17471309999382,150.1575859999939,,855682,001,2024-06-28_12h31.53.487,Gratings_vis_stim_devJG_v0.2,2024.1.5,None,2024-06-28 12h31.57.802627 -0400,
30,0,30,0,150.17471309999382,,,,,150.15785049999977,150.17471309999382,152.17535089999728,152.17535089999728,155.17845249999664,155.1616012999948,,855682,001,2024-06-28_12h31.53.487,Gratings_vis_stim_devJG_v0.2,2024.1.5,None,2024-06-28 12h31.57.802627 -0400,
31,0,31,0,155.17845249999664,,,,,155.16187179999542,155.17845249999664,157.17924999999377,157.17924999999377,160.18229259999498,160.16574430000037,,855682,001,2024-06-28_12h31.53.487,Gratings_vis_stim_devJG_v0.2,2024.1.5,None,2024-06-28 12h31.57.802627 -0400,
32,0,32,0,160.18229259999498,,,,,160.166015099996,160.18229259999498,162.18318569999974,162.18318569999974,165.1863885999992,165.1697167999955,,855682,001,2024-06-28_12h31.53.487,Gratings_vis_stim_devJG_v0.2,2024.1.5,None,2024-06-28 12h31.57.802627 -0400,
33,0,33,0,165.1863885999992,,,,,165.16999119999673,165.1863885999992,167.1872516000003,167.1872516000003,170.1908398999949,170.17370129999472,,855682,001,2024-06-28_12h31.53.487,Gratings_vis_stim_devJG_v0.2,2024.1.5,None,2024-06-28 12h31.57.802627 -0400,
34,0,34,0,170.1908398999949,,,,,170.17396849999932,170.1908398999949,172.1914512000003,172.1914512000003,175.19461489999958,175.17772729999706,,855682,001,2024-06-28_12h31.53.487,Gratings_vis_stim_devJG_v0.2,2024.1.5,None,2024-06-28 12h31.57.802627 -0400,
35,0,35,0,175.19461489999958,,,,,175.17799649999506,175.19461489999958,177.195395799994,177.195395799994,180.19849509999767,180.18212259999564,,855682,001,2024-06-28_12h31.53.487,Gratings_vis_stim_devJG_v0.2,2024.1.5,None,2024-06-28 12h31.57.802627 -0400,
36,0,36,0,180.19849509999767,,,,,180.18239249999897,180.19849509999767,182.19938239999465,182.19938239999465,185.2027267999947,185.1859712000005,,855682,001,2024-06-28_12h31.53.487,Gratings_vis_stim_devJG_v0.2,2024.1.5,None,2024-06-28 12h31.57.802627 -0400,
37,0,37,0,185.2027267999947,,,,,185.1862445000006,185.2027267999947,187.2034446999969,187.2034446999969,190.20704969999497,190.18986699999368,,855682,001,2024-06-28_12h31.53.487,Gratings_vis_stim_devJG_v0.2,2024.1.5,None,2024-06-28 12h31.57.802627 -0400,
38,0,38,0,190.20704969999497,,,,,190.19013699999778,190.20704969999497,192.20769859999564,192.20769859999564,195.21075149999524,195.19390949999797,,855682,001,2024-06-28_12h31.53.487,Gratings_vis_stim_devJG_v0.2,2024.1.5,None,2024-06-28 12h31.57.802627 -0400,
39,0,39,0,195.21075149999524,,,,,195.19418409999344,195.21075149999524,197.2114175999959,197.2114175999959,200.21471559999918,200.19813379999687,,855682,001,2024-06-28_12h31.53.487,Gratings_vis_stim_devJG_v0.2,2024.1.5,None,2024-06-28 12h31.57.802627 -0400,
40,0,40,0,200.21471559999918,,,,,200.19868049999786,200.21471559999918,202.21544789999461,202.21544789999461,205.21507029999339,205.20259559999977,,855682,001,2024-06-28_12h31.53.487,Gratings_vis_stim_devJG_v0.2,2024.1.5,None,2024-06-28 12h31.57.802627 -0400,
41,0,41,0,205.21507029999339,,,,,205.20314719999442,205.21507029999339,207.21659589999763,207.21659589999763,210.2202244,210.2084337999986,,855682,001,2024-06-28_12h31.53.487,Gratings_vis_stim_devJG_v0.2,2024.1.5,None,2024-06-28 12h31.57.802627 -0400,
42,0,42,0,210.2202244,,,,,210.20901239999512,210.2202244,212.2228163999971,212.2228163999971,215.2261068999942,215.21064999999362,,855682,001,2024-06-28_12h31.53.487,Gratings_vis_stim_devJG_v0.2,2024.1.5,None,2024-06-28 12h31.57.802627 -0400,
43,0,43,0,215.2261068999942,,,,,215.2109208999973,215.2261068999942,217.22852039999998,217.22852039999998,220.23025249999773,220.21479890000046,,855682,001,2024-06-28_12h31.53.487,Gratings_vis_stim_devJG_v0.2,2024.1.5,None,2024-06-28 12h31.57.802627 -0400,
44,0,44,0,220.23025249999773,,,,,220.21507059999567,220.23025249999773,222.23178209999605,222.23178209999605,225.2341751999993,225.21874989999924,,855682,001,2024-06-28_12h31.53.487,Gratings_vis_stim_devJG_v0.2,2024.1.5,None,2024-06-28 12h31.57.802627 -0400,
45,0,45,0,225.2341751999993,,,,,225.21901760000037,225.2341751999993,227.23509009999543,227.23509009999543,230.23917289999372,230.22267329999886,,855682,001,2024-06-28_12h31.53.487,Gratings_vis_stim_devJG_v0.2,2024.1.5,None,2024-06-28 12h31.57.802627 -0400,
46,0,46,0,230.23917289999372,,,,,230.22294529999635,230.23917289999372,232.239802899996,232.239802899996,235.24238879999757,235.22677799999656,,855682,001,2024-06-28_12h31.53.487,Gratings_vis_stim_devJG_v0.2,2024.1.5,None,2024-06-28 12h31.57.802627 -0400,
47,0,47,0,235.24238879999757,,,,,235.22705219999625,235.24238879999757,237.24396379999962,237.24396379999962,240.2971166999996,240.28032349999557,,855682,001,2024-06-28_12h31.53.487,Gratings_vis_stim_devJG_v0.2,2024.1.5,None,2024-06-28 12h31.57.802627 -0400,
48,0,48,0,240.2971166999996,,,,,240.28084780000063,240.2971166999996,242.2979922999948,242.2979922999948,245.30129289999604,245.28505819999555,,855682,001,2024-06-28_12h31.53.487,Gratings_vis_stim_devJG_v0.2,2024.1.5,None,2024-06-28 12h31.57.802627 -0400,
49,0,49,0,245.30129289999604,,,,,245.28532489999634,245.30129289999604,247.30198079999536,247.30198079999536,250.30556579999393,250.29014109999844,,855682,001,2024-06-28_12h31.53.487,Gratings_vis_stim_devJG_v0.2,2024.1.5,None,2024-06-28 12h31.57.802627 -0400,
50,0,50,0,250.30556579999393,,,,,250.29053009999916,250.30556579999393,252.30597439999838,252.30597439999838,255.30925609999395,255.29310519999854,,855682,001,2024-06-28_12h31.53.487,Gratings_vis_stim_devJG_v0.2,2024.1.5,None,2024-06-28 12h31.57.802627 -0400,
51,0,51,0,255.30925609999395,,,,,255.2933744999973,255.30925609999395,257.3100967999999,257.3100967999999,260.31352639999386,260.2972221999953,,855682,001,2024-06-28_12h31.53.487,Gratings_vis_stim_devJG_v0.2,2024.1.5,None,2024-06-28 12h31.57.802627 -0400,
52,0,52,0,260.31352639999386,,,,,260.2975026999993,260.31352639999386,262.3142097999953,262.3142097999953,265.31747899999755,265.30124899999646,,855682,001,2024-06-28_12h31.53.487,Gratings_vis_stim_devJG_v0.2,2024.1.5,None,2024-06-28 12h31.57.802627 -0400,
53,0,53,0,265.31747899999755,,,,,265.3015180000002,265.31747899999755,267.3181153999976,267.3181153999976,270.32168689999526,270.30532509999466,,855682,001,2024-06-28_12h31.53.487,Gratings_vis_stim_devJG_v0.2,2024.1.5,None,2024-06-28 12h31.57.802627 -0400,
54,0,54,0,270.32168689999526,,,,,270.3055905000001,270.32168689999526,272.3221376999936,272.3221376999936,275.3256244000004,275.30948669999634,,855682,001,2024-06-28_12h31.53.487,Gratings_vis_stim_devJG_v0.2,2024.1.5,None,2024-06-28 12h31.57.802627 -0400,
55,0,55,0,275.3256244000004,,,,,275.30975609999587,275.3256244000004,277.3260808999985,277.3260808999985,280.32950609999534,280.3127316999962,,855682,001,2024-06-28_12h31.53.487,Gratings_vis_stim_devJG_v0.2,2024.1.5,None,2024-06-28 12h31.57.802627 -0400,
56,0,56,0,280.32950609999534,,,,,280.3130447000003,280.32950609999534,282.3303237999935,282.3303237999935,285.33355019999726,285.3174555000005,,855682,001,2024-06-28_12h31.53.487,Gratings_vis_stim_devJG_v0.2,2024.1.5,None,2024-06-28 12h31.57.802627 -0400,
57,0,57,0,285.33355019999726,,,,,285.3177230000001,285.33355019999726,287.3344816999961,287.3344816999961,290.3384137999965,290.3218640999985,,855682,001,2024-06-28_12h31.53.487,Gratings_vis_stim_devJG_v0.2,2024.1.5,None,2024-06-28 12h31.57.802627 -0400,
58,0,58,0,290.3384137999965,,,,,290.3224073999954,290.3384137999965,292.3383528999984,292.3383528999984,295.3756684999971,295.35975949999556,,855682,001,2024-06-28_12h31.53.487,Gratings_vis_stim_devJG_v0.2,2024.1.5,None,2024-06-28 12h31.57.802627 -0400,
59,0,59,0,295.3756684999971,,,,,295.3602994999965,295.3756684999971,297.3756831999999,297.3756831999999,300.37904299999354,300.36213919999864,,855682,001,2024-06-28_12h31.53.487,Gratings_vis_stim_devJG_v0.2,2024.1.5,None,2024-06-28 12h31.57.802627 -0400,
60,0,60,0,300.37904299999354,,,,,300.3624184,300.37904299999354,302.3798140999934,302.3798140999934,305.38321119999455,305.3660443999979,,855682,001,2024-06-28_12h31.53.487,Gratings_vis_stim_devJG_v0.2,2024.1.5,None,2024-06-28 12h31.57.802627 -0400,
61,0,61,0,305.38321119999455,,,,,305.36642419999407,305.38321119999455,307.38395409999794,307.38395409999794,310.387404699999,310.3710441999938,,855682,001,2024-06-28_12h31.53.487,Gratings_vis_stim_devJG_v0.2,2024.1.5,None,2024-06-28 12h31.57.802627 -0400,
62,0,62,0,310.387404699999,,,,,310.37130789999355,310.387404699999,312.3880145000003,312.3880145000003,315.39136919999873,315.37504400000034,,855682,001,2024-06-28_12h31.53.487,Gratings_vis_stim_devJG_v0.2,2024.1.5,None,2024-06-28 12h31.57.802627 -0400,
63,0,63,0,315.39136919999873,,,,,315.37531569999555,315.39136919999873,317.39199409999856,317.39199409999856,320.39520349999657,320.3789809999944,,855682,001,2024-06-28_12h31.53.487,Gratings_vis_stim_devJG_v0.2,2024.1.5,None,2024-06-28 12h31.57.802627 -0400,
64,0,64,0,320.39520349999657,,,,,320.3792497999966,320.39520349999657,322.3957586999968,322.3957586999968,325.3992313999988,325.38234919999377,,855682,001,2024-06-28_12h31.53.487,Gratings_vis_stim_devJG_v0.2,2024.1.5,None,2024-06-28 12h31.57.802627 -0400,
65,0,65,0,325.3992313999988,,,,,325.3826220999981,325.3992313999988,327.40002749999985,327.40002749999985,330.40367100000003,330.3872207999957,,855682,001,2024-06-28_12h31.53.487,Gratings_vis_stim_devJG_v0.2,2024.1.5,None,2024-06-28 12h31.57.802627 -0400,
66,0,66,0,330.40367100000003,,,,,330.3874929999947,330.40367100000003,332.4040757999974,332.4040757999974,335.40748089999397,335.39113749999524,,855682,001,2024-06-28_12h31.53.487,Gratings_vis_stim_devJG_v0.2,2024.1.5,None,2024-06-28 12h31.57.802627 -0400,
67,0,67,0,335.40748089999397,,,,,335.3914081999974,335.40748089999397,337.4080818999937,337.4080818999937,340.41158619999624,340.39533149999625,,855682,001,2024-06-28_12h31.53.487,Gratings_vis_stim_devJG_v0.2,2024.1.5,None,2024-06-28 12h31.57.802627 -0400,
68,0,68,0,340.41158619999624,,,,,340.3955952999968,340.41158619999624,342.412313599998,342.412313599998,345.4155591999952,345.39862139999605,,855682,001,2024-06-28_12h31.53.487,Gratings_vis_stim_devJG_v0.2,2024.1.5,None,2024-06-28 12h31.57.802627 -0400,
69,0,69,0,345.4155591999952,,,,,345.39888669999345,345.4155591999952,347.4163004000002,347.4163004000002,350.41963419999956,350.4041994999934,,855682,001,2024-06-28_12h31.53.487,Gratings_vis_stim_devJG_v0.2,2024.1.5,None,2024-06-28 12h31.57.802627 -0400,
70,0,70,0,350.41963419999956,,,,,350.4044664999965,350.41963419999956,352.42054729999654,352.42054729999654,355.42386659999465,355.4067828999978,,855682,001,2024-06-28_12h31.53.487,Gratings_vis_stim_devJG_v0.2,2024.1.5,None,2024-06-28 12h31.57.802627 -0400,
71,0,71,0,355.42386659999465,,,,,355.4070570999975,355.42386659999465,357.45769519999885,357.45769519999885,360.4610141999947,360.44435159999557,,855682,001,2024-06-28_12h31.53.487,Gratings_vis_stim_devJG_v0.2,2024.1.5,None,2024-06-28 12h31.57.802627 -0400,
72,0,72,0,360.4610141999947,,,,,360.44462579999526,360.4610141999947,362.4617324999999,362.4617324999999,365.4651986999961,365.4489892999991,,855682,001,2024-06-28_12h31.53.487,Gratings_vis_stim_devJG_v0.2,2024.1.5,None,2024-06-28 12h31.57.802627 -0400,
73,0,73,0,365.4651986999961,,,,,365.4492590999944,365.4651986999961,367.46592039999814,367.46592039999814,370.4691176999986,370.4521706999949,,855682,001,2024-06-28_12h31.53.487,Gratings_vis_stim_devJG_v0.2,2024.1.5,None,2024-06-28 12h31.57.802627 -0400,
74,0,74,0,370.4691176999986,,,,,370.45244439999806,370.4691176999986,372.46978719999606,372.46978719999606,375.47346039999684,375.45730399999593,,855682,001,2024-06-28_12h31.53.487,Gratings_vis_stim_devJG_v0.2,2024.1.5,None,2024-06-28 12h31.57.802627 -0400,
75,0,75,0,375.47346039999684,,,,,375.45756979999715,375.47346039999684,377.4739763999969,377.4739763999969,380.47721119999915,380.4610640999963,,855682,001,2024-06-28_12h31.53.487,Gratings_vis_stim_devJG_v0.2,2024.1.5,None,2024-06-28 12h31.57.802627 -0400,
76,0,76,0,380.47721119999915,,,,,380.46133539999573,380.47721119999915,382.47804449999967,382.47804449999967,385.48139159999846,385.46390589999646,,855682,001,2024-06-28_12h31.53.487,Gratings_vis_stim_devJG_v0.2,2024.1.5,None,2024-06-28 12h31.57.802627 -0400,
77,0,77,0,385.48139159999846,,,,,385.46417989999463,385.48139159999846,387.4819892999949,387.4819892999949,390.4852885,390.4691332000002,,855682,001,2024-06-28_12h31.53.487,Gratings_vis_stim_devJG_v0.2,2024.1.5,None,2024-06-28 12h31.57.802627 -0400,
78,0,78,0,390.4852885,,,,,390.4694038999951,390.4852885,392.4861394999971,392.4861394999971,395.4897450999997,395.47322669999994,,855682,001,2024-06-28_12h31.53.487,Gratings_vis_stim_devJG_v0.2,2024.1.5,None,2024-06-28 12h31.57.802627 -0400,
79,0,79,0,395.4897450999997,,,,,395.47349729999405,395.4897450999997,397.49017979999917,397.49017979999917,400.4934337999948,400.4764217999982,,855682,001,2024-06-28_12h31.53.487,Gratings_vis_stim_devJG_v0.2,2024.1.5,None,2024-06-28 12h31.57.802627 -0400,
80,0,80,0,400.4934337999948,,,,,400.4766877000002,400.4934337999948,402.4940201999998,402.4940201999998,405.4975317999997,405.48123699999996,,855682,001,2024-06-28_12h31.53.487,Gratings_vis_stim_devJG_v0.2,2024.1.5,None,2024-06-28 12h31.57.802627 -0400,
81,0,81,0,405.4975317999997,,,,,405.48150849999365,405.4975317999997,407.4982014999987,407.4982014999987,410.5016189999951,410.48457969999436,,855682,001,2024-06-28_12h31.53.487,Gratings_vis_stim_devJG_v0.2,2024.1.5,None,2024-06-28 12h31.57.802627 -0400,
82,0,82,0,410.5016189999951,,,,,410.48484719999396,410.5016189999951,412.50226989999646,412.50226989999646,415.5058394999942,415.48875369999587,,855682,001,2024-06-28_12h31.53.487,Gratings_vis_stim_devJG_v0.2,2024.1.5,None,2024-06-28 12h31.57.802627 -0400,
83,0,83,0,415.5058394999942,,,,,415.4890205999982,415.5058394999942,417.5061529999948,417.5061529999948,420.50950770000054,420.49346030000015,,855682,001,2024-06-28_12h31.53.487,Gratings_vis_stim_devJG_v0.2,2024.1.5,None,2024-06-28 12h31.57.802627 -0400,
84,0,84,0,420.50950770000054,,,,,420.4937271999952,420.50950770000054,422.5103611999948,422.5103611999948,425.5136631999994,425.49753619999683,,855682,001,2024-06-28_12h31.53.487,Gratings_vis_stim_devJG_v0.2,2024.1.5,None,2024-06-28 12h31.57.802627 -0400,
85,0,85,0,425.5136631999994,,,,,425.49780230000033,425.5136631999994,427.5143920999981,427.5143920999981,430.517571999997,430.50067009999475,,855682,001,2024-06-28_12h31.53.487,Gratings_vis_stim_devJG_v0.2,2024.1.5,None,2024-06-28 12h31.57.802627 -0400,
86,0,86,0,430.517571999997,,,,,430.5009432000006,430.517571999997,432.5184717999946,432.5184717999946,435.52203069999814,435.50570629999856,,855682,001,2024-06-28_12h31.53.487,Gratings_vis_stim_devJG_v0.2,2024.1.5,None,2024-06-28 12h31.57.802627 -0400,
87,0,87,0,435.52203069999814,,,,,435.5059792999964,435.52203069999814,437.5723763999995,437.5723763999995,440.57595229999424,440.5589655999938,,855682,001,2024-06-28_12h31.53.487,Gratings_vis_stim_devJG_v0.2,2024.1.5,None,2024-06-28 12h31.57.802627 -0400,
88,0,88,0,440.57595229999424,,,,,440.559236299996,440.57595229999424,442.5765891999981,442.5765891999981,445.579960199997,445.56286929999624,,855682,001,2024-06-28_12h31.53.487,Gratings_vis_stim_devJG_v0.2,2024.1.5,None,2024-06-28 12h31.57.802627 -0400,
89,0,89,0,445.579960199997,,,,,445.5631357999955,445.579960199997,447.58064629999717,447.58064629999717,450.5840926999954,450.56698809999943,,855682,001,2024-06-28_12h31.53.487,Gratings_vis_stim_devJG_v0.2,2024.1.5,None,2024-06-28 12h31.57.802627 -0400,
90,0,90,0,450.5840926999954,,,,,450.5672540999949,450.5840926999954,452.5846820000006,452.5846820000006,455.5881748999964,455.5711666999996,,855682,001,2024-06-28_12h31.53.487,Gratings_vis_stim_devJG_v0.2,2024.1.5,None,2024-06-28 12h31.57.802627 -0400,
91,0,91,0,455.5881748999964,,,,,455.5714449999941,455.5881748999964,457.5886296999961,457.5886296999961,460.62675569999556,460.6100146999961,,855682,001,2024-06-28_12h31.53.487,Gratings_vis_stim_devJG_v0.2,2024.1.5,None,2024-06-28 12h31.57.802627 -0400,
92,0,92,0,460.62675569999556,,,,,460.6106151999993,460.62675569999556,462.6260579999944,462.6260579999944,465.6295398999937,465.6123857999992,,855682,001,2024-06-28_12h31.53.487,Gratings_vis_stim_devJG_v0.2,2024.1.5,None,2024-06-28 12h31.57.802627 -0400,
93,0,93,0,465.6295398999937,,,,,465.6126579999982,465.6295398999937,467.6301836999992,467.6301836999992,470.6334646999967,470.6179680999994,,855682,001,2024-06-28_12h31.53.487,Gratings_vis_stim_devJG_v0.2,2024.1.5,None,2024-06-28 12h31.57.802627 -0400,
94,0,94,0,470.6334646999967,,,,,470.61823719999666,470.6334646999967,472.63420909999695,472.63420909999695,475.6378215999939,475.6219892999943,,855682,001,2024-06-28_12h31.53.487,Gratings_vis_stim_devJG_v0.2,2024.1.5,None,2024-06-28 12h31.57.802627 -0400,
95,0,95,0,475.6378215999939,,,,,475.6222675999961,475.6378215999939,477.6382644999976,477.6382644999976,480.64165859999775,480.62544969999726,,855682,001,2024-06-28_12h31.53.487,Gratings_vis_stim_devJG_v0.2,2024.1.5,None,2024-06-28 12h31.57.802627 -0400,
96,0,96,0,480.64165859999775,,,,,480.62571809999645,480.64165859999775,482.6423070999954,482.6423070999954,485.64556539999467,485.6291809999966,,855682,001,2024-06-28_12h31.53.487,Gratings_vis_stim_devJG_v0.2,2024.1.5,None,2024-06-28 12h31.57.802627 -0400,
97,0,97,0,485.64556539999467,,,,,485.62945000000036,485.64556539999467,487.646338999999,487.646338999999,490.64957239999785,490.63243419999344,,855682,001,2024-06-28_12h31.53.487,Gratings_vis_stim_devJG_v0.2,2024.1.5,None,2024-06-28 12h31.57.802627 -0400,
98,0,98,0,490.64957239999785,,,,,490.63270199999533,490.64957239999785,492.65041219999694,492.65041219999694,495.65403069999593,495.6377433999951,,855682,001,2024-06-28_12h31.53.487,Gratings_vis_stim_devJG_v0.2,2024.1.5,None,2024-06-28 12h31.57.802627 -0400,
99,0,99,0,495.65403069999593,,,,,495.63801519999834,495.65403069999593,497.65445329999784,497.65445329999784,500.65776319999713,500.6415765999991,,855682,001,2024-06-28_12h31.53.487,Gratings_vis_stim_devJG_v0.2,2024.1.5,None,2024-06-28 12h31.57.802627 -0400,
100,0,100,0,500.65776319999713,,,,,500.64185119999456,500.65776319999713,502.6583354999966,502.6583354999966,505.66187669999636,505.6456379999945,,855682,001,2024-06-28_12h31.53.487,Gratings_vis_stim_devJG_v0.2,2024.1.5,None,2024-06-28 12h31.57.802627 -0400,
101,0,101,0,505.66187669999636,,,,,505.6459077999971,505.66187669999636,507.6625703999962,507.6625703999962,510.6658590999941,510.6494787999982,,855682,001,2024-06-28_12h31.53.487,Gratings_vis_stim_devJG_v0.2,2024.1.5,None,2024-06-28 12h31.57.802627 -0400,
102,0,102,0,510.6658590999941,,,,,510.64974660000007,510.6658590999941,512.6665207999977,512.6665207999977,515.6702575999952,515.6530794999999,,855682,001,2024-06-28_12h31.53.487,Gratings_vis_stim_devJG_v0.2,2024.1.5,None,2024-06-28 12h31.57.802627 -0400,
103,0,103,0,515.6702575999952,,,,,515.6533538999938,515.6702575999952,517.6707629999946,517.6707629999946,520.6739291999984,520.6575707999946,,855682,001,2024-06-28_12h31.53.487,Gratings_vis_stim_devJG_v0.2,2024.1.5,None,2024-06-28 12h31.57.802627 -0400,
104,0,104,0,520.6739291999984,,,,,520.6578437999997,520.6739291999984,522.6746776999935,522.6746776999935,525.6780871999945,525.6613842000006,,855682,001,2024-06-28_12h31.53.487,Gratings_vis_stim_devJG_v0.2,2024.1.5,None,2024-06-28 12h31.57.802627 -0400,
105,0,105,0,525.6780871999945,,,,,525.6616534999994,525.6780871999945,527.6787425000002,527.6787425000002,530.6823388999983,530.6658341000002,,855682,001,2024-06-28_12h31.53.487,Gratings_vis_stim_devJG_v0.2,2024.1.5,None,2024-06-28 12h31.57.802627 -0400,
106,0,106,0,530.6823388999983,,,,,530.6661032999982,530.6823388999983,532.6828064000001,532.6828064000001,535.6863199,535.6691269999938,,855682,001,2024-06-28_12h31.53.487,Gratings_vis_stim_devJG_v0.2,2024.1.5,None,2024-06-28 12h31.57.802627 -0400,
107,0,107,0,535.6863199,,,,,535.6693962999998,535.6863199,537.6869664999977,537.6869664999977,540.6901863999956,540.6730637000001,,855682,001,2024-06-28_12h31.53.487,Gratings_vis_stim_devJG_v0.2,2024.1.5,None,2024-06-28 12h31.57.802627 -0400,
108,0,108,0,540.6901863999956,,,,,540.6733280999979,540.6901863999956,542.6907300999956,542.6907300999956,545.6941788999975,545.6778034999952,,855682,001,2024-06-28_12h31.53.487,Gratings_vis_stim_devJG_v0.2,2024.1.5,None,2024-06-28 12h31.57.802627 -0400,
109,0,109,0,545.6941788999975,,,,,545.678081399994,545.6941788999975,547.6949924,547.6949924,550.6981100999983,550.6820783999938,,855682,001,2024-06-28_12h31.53.487,Gratings_vis_stim_devJG_v0.2,2024.1.5,None,2024-06-28 12h31.57.802627 -0400,
110,0,110,0,550.6981100999983,,,,,550.6823874999973,550.6981100999983,552.6988431999998,552.6988431999998,555.7025737000004,555.6851820999946,,855682,001,2024-06-28_12h31.53.487,Gratings_vis_stim_devJG_v0.2,2024.1.5,None,2024-06-28 12h31.57.802627 -0400,
111,0,111,0,555.7025737000004,,,,,555.6854558999985,555.7025737000004,557.7031277999995,557.7031277999995,560.7062009999936,560.6911456999951,,855682,001,2024-06-28_12h31.53.487,Gratings_vis_stim_devJG_v0.2,2024.1.5,None,2024-06-28 12h31.57.802627 -0400,
112,0,112,0,560.7062009999936,,,,,560.6914121999944,560.7062009999936,562.706929299995,562.706929299995,565.7102947999956,565.6941847999988,,855682,001,2024-06-28_12h31.53.487,Gratings_vis_stim_devJG_v0.2,2024.1.5,None,2024-06-28 12h31.57.802627 -0400,
113,0,113,0,565.7102947999956,,,,,565.6944533999995,565.7102947999956,567.7110207000005,567.7110207000005,570.7144645999942,570.6989180999954,,855682,001,2024-06-28_12h31.53.487,Gratings_vis_stim_devJG_v0.2,2024.1.5,None,2024-06-28 12h31.57.802627 -0400,
114,0,114,0,570.7144645999942,,,,,570.699191599997,570.7144645999942,572.7151506999944,572.7151506999944,575.7186434999967,575.7015501999995,,855682,001,2024-06-28_12h31.53.487,Gratings_vis_stim_devJG_v0.2,2024.1.5,None,2024-06-28 12h31.57.802627 -0400,
115,0,115,0,575.7186434999967,,,,,575.7018179000006,575.7186434999967,577.7198925999983,577.7198925999983,580.7224037999986,580.7070355999967,,855682,001,2024-06-28_12h31.53.487,Gratings_vis_stim_devJG_v0.2,2024.1.5,None,2024-06-28 12h31.57.802627 -0400,
116,0,116,0,580.7224037999986,,,,,580.7074264999974,580.7224037999986,582.7231329999995,582.7231329999995,585.7266219999947,585.7095819999959,,855682,001,2024-06-28_12h31.53.487,Gratings_vis_stim_devJG_v0.2,2024.1.5,None,2024-06-28 12h31.57.802627 -0400,
117,0,117,0,585.7266219999947,,,,,585.7098513999954,585.7266219999947,587.7273569999961,587.7273569999961,590.7309186999992,590.7155349999957,,855682,001,2024-06-28_12h31.53.487,Gratings_vis_stim_devJG_v0.2,2024.1.5,None,2024-06-28 12h31.57.802627 -0400,
118,0,118,0,590.7309186999992,,,,,590.716081999999,590.7309186999992,592.7646985999963,592.7646985999963,595.7681817999983,595.7510602999973,,855682,001,2024-06-28_12h31.53.487,Gratings_vis_stim_devJG_v0.2,2024.1.5,None,2024-06-28 12h31.57.802627 -0400,
119,0,119,0,595.7681817999983,,,,,595.7513230999975,595.7681817999983,597.7689098999981,597.7689098999981,600.7720859999972,600.7558348999955,,855682,001,2024-06-28_12h31.53.487,Gratings_vis_stim_devJG_v0.2,2024.1.5,None,2024-06-28 12h31.57.802627 -0400,
120,0,120,0,600.7720859999972,,,,,600.7561088999937,600.7720859999972,602.7728018999987,602.7728018999987,605.7761481999987,605.7599927999981,,855682,001,2024-06-28_12h31.53.487,Gratings_vis_stim_devJG_v0.2,2024.1.5,None,2024-06-28 12h31.57.802627 -0400,
121,0,121,0,605.7761481999987,,,,,605.7605416999941,605.7761481999987,607.7768982999987,607.7768982999987,610.7801827000003,610.7631855,,855682,001,2024-06-28_12h31.53.487,Gratings_vis_stim_devJG_v0.2,2024.1.5,None,2024-06-28 12h31.57.802627 -0400,
122,0,122,0,610.7801827000003,,,,,610.7634600999954,610.7801827000003,612.7808906999999,612.7808906999999,615.7843374000004,615.7672112999935,,855682,001,2024-06-28_12h31.53.487,Gratings_vis_stim_devJG_v0.2,2024.1.5,None,2024-06-28 12h31.57.802627 -0400,
123,0,123,0,615.7843374000004,,,,,615.7674813999984,615.7843374000004,617.785240499994,617.785240499994,620.7883574999942,620.7707227999999,,855682,001,2024-06-28_12h31.53.487,Gratings_vis_stim_devJG_v0.2,2024.1.5,None,2024-06-28 12h31.57.802627 -0400,
124,0,124,0,620.7883574999942,,,,,620.7709927999967,620.7883574999942,622.7889980999971,622.7889980999971,625.7923754999938,625.7752693999937,,855682,001,2024-06-28_12h31.53.487,Gratings_vis_stim_devJG_v0.2,2024.1.5,None,2024-06-28 12h31.57.802627 -0400,
125,0,125,0,625.7923754999938,,,,,625.7755394999986,625.7923754999938,627.7928472999993,627.7928472999993,630.796199599994,630.7793057999952,,855682,001,2024-06-28_12h31.53.487,Gratings_vis_stim_devJG_v0.2,2024.1.5,None,2024-06-28 12h31.57.802627 -0400,
126,0,126,0,630.796199599994,,,,,630.7795853999996,630.796199599994,632.7971638999952,632.7971638999952,635.8005200999978,635.7837268999938,,855682,001,2024-06-28_12h31.53.487,Gratings_vis_stim_devJG_v0.2,2024.1.5,None,2024-06-28 12h31.57.802627 -0400,
127,0,127,0,635.8005200999978,,,,,635.7839985999963,635.8005200999978,637.8012450999959,637.8012450999959,640.803433699999,640.7874278999952,,855682,001,2024-06-28_12h31.53.487,Gratings_vis_stim_devJG_v0.2,2024.1.5,None,2024-06-28 12h31.57.802627 -0400,
,,,,,,,,,,,,,,,40,,,,,,,,
